Folder: ML-course

Note: README.md
# ML-course

# Current approach in "mayorhou' branch: 

CNN+LSTM with dropout 0.3: Not convergent

CNN+LSTM with dropout 0.5: Convergent, but it can only guess cubic.

CNN+LSTM with dropout 0.5 and modified dataset: Not convergent, not yet solved.

Note: warnings_log.txt
File: 2208960.cif
  Warning: Invalid CIF file with no structures!

File: filelist_for_xrd.txt
7034459.cif
1511561.cif
2017847.cif
7222903.cif
2230515.cif
1539560.cif
9017270.cif
9013764.cif
2224558.cif
1534040.cif
1528482.cif
9012491.cif
1522187.cif
4030431.cif
1006007.cif
1008994.cif
9003749.cif
1509882.cif
9001823.cif
1538524.cif
9015705.cif
9000320.cif
2002889.cif
1511607.cif
4336615.cif
1535564.cif
1531070.cif
7020038.cif
2100250.cif
1511363.cif
2020143.cif
1540677.cif
1514232.cif
1000098.cif
9002046.cif
1010512.cif
1544388.cif
9009885.cif
9004184.cif
1532961.cif
1531529.cif
1539161.cif
4124531.cif
9003172.cif
1509673.cif
2021102.cif
1010116.cif
9012137.cif
1528656.cif
7209995.cif
4326765.cif
1511216.cif
7117939.cif
1530555.cif
1563125.cif
9008351.cif
2107312.cif
9005677.cif
1100111.cif
2310167.cif
2241300.cif
9006381.cif
1010128.cif
1527573.cif
4123466.cif
4333154.cif
9006801.cif
7047315.cif
4323596.cif
1523661.cif
1524640.cif
7246676.cif
4002537.cif
4515294.cif
9017313.cif
4345405.cif
1539413.cif
2100247.cif
1511374.cif
1527836.cif
7117899.cif
5000222.cif
1511361.cif
9012256.cif
1535200.cif
1523310.cif
1524319.cif
9002284.cif
2002874.cif
2020380.cif
7041836.cif
4124532.cif
1540270.cif
9006196.cif
1563481.cif
9004024.cif
1562990.cif
9003777.cif
2020035.cif
9009919.cif
1541422.cif
9014753.cif
9005110.cif
1528331.cif
2202288.cif
1522135.cif
7707929.cif
4030865.cif
9005188.cif
4307095.cif
1524752.cif
4344351.cif
9007210.cif
7228081.cif
4002419.cif
1538390.cif
9001729.cif
1526743.cif
7030070.cif
4003667.cif
4315917.cif
9008080.cif
1532520.cif
9005759.cif
1525060.cif
2106687.cif
1509207.cif
2104906.cif
4305091.cif
1525934.cif
2240858.cif
1570048.cif
1008338.cif
1001308.cif
1509986.cif
2243612.cif
1538226.cif
4321480.cif
9014457.cif
9005228.cif
4102356.cif
9000595.cif
2239035.cif
1527500.cif
2100156.cif
1510390.cif
1513302.cif
1524586.cif
1542171.cif
9003261.cif
1540799.cif
1525883.cif
1525659.cif
1510190.cif
2003111.cif
4113932.cif
1533946.cif
2106900.cif
1520912.cif
1524745.cif
2107149.cif
4336920.cif
7045201.cif
9006694.cif
1538387.cif
1524631.cif
1566358.cif
1008676.cif
2016695.cif
1514043.cif
1530877.cif
9017438.cif
2002353.cif
9003471.cif
1540162.cif
1524382.cif
2310710.cif
9014871.cif
9017388.cif
1538755.cif
9013105.cif
7209313.cif
9016041.cif
1538594.cif
2018875.cif
1510556.cif
2108333.cif
1521984.cif
9003896.cif
4332548.cif
9010791.cif
1526190.cif
1532668.cif
9006118.cif
4319054.cif
1536817.cif
2310671.cif
9012390.cif
4002194.cif
4330834.cif
2220995.cif
1535315.cif
4113937.cif
1536620.cif
9001459.cif
1509349.cif
9004290.cif
9006493.cif
1101045.cif
9004737.cif
1528608.cif
9006861.cif
1509177.cif
8102912.cif
4030254.cif
1000207.cif
2107038.cif
4002557.cif
1509003.cif
1532081.cif
9011702.cif
1526547.cif
1528218.cif
2219731.cif
9012586.cif
1524387.cif
1524392.cif
4325421.cif
1530330.cif
7222839.cif
9013672.cif
7222805.cif
1521956.cif
4303828.cif
9015983.cif
1537649.cif
1541085.cif
2106290.cif
5000120.cif
2239796.cif
9006135.cif
1531364.cif
9011461.cif
7232237.cif
8103833.cif
4333445.cif
9017548.cif
1532309.cif
2107367.cif
9007017.cif
1525105.cif
9011891.cif
1522865.cif
4325543.cif
7041263.cif
2107173.cif
1523010.cif
1510394.cif
4312674.cif
1001091.cif
7222230.cif
1525267.cif
4313344.cif
1537139.cif
9004898.cif
1514079.cif
1523831.cif
4318007.cif
9015573.cif
8105475.cif
9000624.cif
1528582.cif
1526593.cif
1534183.cif
9010387.cif
9009826.cif
1511464.cif
9012547.cif
7701582.cif
9010378.cif
1511128.cif
9000396.cif
1537892.cif
1511699.cif
7705280.cif
9005211.cif
1536385.cif
2310475.cif
9014240.cif
1535883.cif
1528622.cif
4327180.cif
9007943.cif
4309916.cif
7203980.cif
9010230.cif
9014718.cif
1008261.cif
9008325.cif